time,intensity,distance
0.001,954,3.69
0.002,955,5.42
0.007,954,5.42
0.023,953,5.32
0.039,955,5.42
0.056,955,5.42
0.073,955,5.41
0.090,954,5.37
0.106,953,2.72
0.122,953,2.72
0.140,954,2.72
0.156,953,2.60
0.173,953,2.70
0.189,955,2.72
0.206,954,2.72
0.223,955,2.62
0.239,954,2.70
0.256,955,2.72
0.273,955,2.72
0.289,955,2.60
0.306,955,2.72
0.322,953,2.72
0.339,955,2.72
0.356,955,3.47
0.372,955,3.18
0.389,954,2.77
0.406,955,2.36
0.422,954,2.26
0.439,953,2.82
0.455,953,2.41
0.473,953,2.47
0.489,952,2.47
0.505,949,2.62
0.522,948,2.31
0.539,948,2.35
0.556,947,2.31
0.572,947,2.47
0.588,947,2.52
0.606,946,2.57
0.622,946,2.52
0.638,946,2.26
0.655,945,2.31
0.672,945,2.31
0.689,944,2.24
0.705,944,2.35
0.721,944,2.41
0.739,945,2.47
0.755,945,2.82
0.772,944,2.57
0.788,942,2.67
0.805,941,2.77
0.822,940,2.75
0.838,937,3.01
0.855,935,3.18
0.872,933,3.26
0.888,932,3.69
0.905,932,3.83
0.921,931,3.88
0.939,930,3.93
0.955,929,3.88
0.971,930,4.05
0.988,927,3.69
1.005,928,3.74
1.021,928,4.03
1.038,927,4.15
1.054,927,4.20
1.072,927,4.18
1.088,927,4.10
1.104,927,4.25
1.121,927,4.28
1.138,926,4.35
1.155,926,4.35
1.171,924,4.51
1.187,923,4.56
1.205,922,5.07
1.221,922,5.07
1.238,922,5.27
1.254,921,4.90
1.271,918,5.73
1.288,919,5.37
1.304,918,5.98
1.320,916,5.63
1.338,914,5.63
1.354,913,5.27
1.371,914,5.41
1.387,913,5.88
1.404,912,5.88
1.421,912,5.93
1.437,911,5.68
1.454,909,5.71
1.471,910,5.61
1.487,910,5.68
1.504,908,5.83
1.520,908,5.88
1.538,908,5.81
1.554,907,5.83
1.570,906,5.98
1.587,906,6.44
1.604,906,5.93
1.620,905,5.97
1.637,905,6.14
1.653,905,6.12
1.671,905,6.09
1.687,903,5.68
1.703,903,6.24
1.720,903,6.34
1.737,902,6.29
1.754,899,6.39
1.770,899,6.19
1.786,898,6.65
1.804,896,6.65
1.820,894,6.80
1.837,894,6.55
1.853,893,6.65
1.870,891,7.06
1.887,890,6.75
1.903,888,7.31
1.920,887,7.00
1.937,886,6.95
1.953,885,7.00
1.970,884,7.16
1.986,885,7.21
2.003,884,7.16
2.020,884,7.16
2.036,883,7.31
2.053,882,7.31
2.070,882,7.24
2.086,882,7.31
2.103,881,7.46
2.119,881,7.51
2.137,879,7.46
2.153,879,7.51
2.169,877,7.67
2.186,878,7.72
2.203,876,7.70
2.220,875,7.77
2.236,873,7.97
2.252,872,8.06
2.270,871,8.02
2.286,870,8.08
2.302,870,8.23
2.319,870,8.28
2.336,869,8.55
2.353,867,8.60
2.369,868,8.70
2.385,866,8.76
2.403,866,8.38
2.419,866,8.40
2.436,864,8.55
2.452,862,9.06
2.469,862,8.70
2.486,859,8.81
2.502,858,8.96
2.519,857,9.06
2.536,856,9.42
2.552,856,9.11
2.569,855,9.27
2.585,853,9.69
2.603,854,9.21
2.619,852,9.27
2.635,852,9.42
2.652,851,9.42
2.669,853,9.37
2.685,851,9.37
2.702,850,9.47
2.718,850,9.47
2.736,852,9.37
2.752,850,9.78
2.768,852,9.88
2.785,849,9.83
2.802,850,9.88
2.819,849,9.88
2.835,848,10.05
2.852,849,9.59
2.870,847,9.64
2.886,847,9.72
2.903,844,10.29
2.920,845,10.29
2.938,843,10.34
2.956,842,10.03
2.973,842,10.18
2.992,840,10.18
3.009,838,10.69
3.026,837,10.91
3.044,837,10.59
3.062,835,10.54
3.080,833,11.00
3.097,834,11.20
3.115,832,11.17
3.133,832,11.20
3.150,831,11.27
3.168,830,11.02
3.185,828,10.95
3.204,829,11.00
3.221,827,11.48
3.238,826,11.68
3.256,825,11.61
3.274,825,11.66
3.292,824,11.42
3.309,823,11.48
3.328,822,11.82
3.345,821,11.88
3.362,821,12.07
3.380,819,12.04
3.398,819,11.73
3.416,817,11.78
3.433,816,12.34
3.450,815,12.34
3.469,814,12.44
3.486,813,12.53
3.504,812,12.70
3.521,810,12.65
3.539,810,12.73
3.557,808,12.90
3.574,808,12.89
3.593,806,12.99
3.610,805,13.06
3.628,805,13.67
3.645,804,13.21
3.663,802,13.67
3.681,802,13.36
3.698,801,13.52
3.716,799,13.45
3.734,800,13.52
3.751,797,13.57
3.769,798,13.62
3.786,796,13.70
3.805,796,13.77
3.822,795,13.92
3.840,795,13.91
3.858,793,13.96
3.875,792,14.03
3.893,791,14.23
3.910,790,14.16
3.929,789,14.64
3.946,788,14.33
3.963,788,14.48
3.981,786,14.84
3.999,785,14.88
4.017,785,14.98
4.034,784,15.05
4.051,782,14.67
4.070,782,15.13
4.087,782,15.15
4.105,780,15.20
4.123,781,15.25
4.141,780,15.28
4.158,780,15.45
4.175,779,15.40
4.194,779,15.05
4.211,778,15.10
4.229,778,15.18
4.246,776,15.61
4.264,776,15.66
4.282,776,15.71
4.299,775,15.74
4.317,774,15.74
4.335,774,15.81
4.353,774,15.81
4.370,773,15.86
4.387,773,15.84
4.406,772,15.90
4.423,773,16.01
4.441,773,15.91
4.459,772,15.90
4.476,772,15.90
4.494,771,15.50
4.511,771,15.91
4.530,773,15.95
4.547,772,15.54
4.564,772,15.54
4.582,771,15.96
4.600,771,16.06
4.618,770,16.12
4.635,769,16.22
4.653,769,16.30
4.671,767,16.35
4.688,765,16.57
4.706,764,16.61
4.724,762,16.78
4.742,760,16.93
4.759,758,17.09
4.776,757,17.17
4.795,754,17.39
4.812,752,17.49
4.830,751,17.65
4.847,749,17.75
4.866,747,17.85
4.883,747,18.21
4.900,746,18.00
4.918,746,18.00
4.936,746,18.04
4.954,746,18.05
4.971,744,18.51
4.989,746,18.11
5.007,744,18.16
5.024,744,18.21
5.042,743,18.26
5.060,742,18.36
5.078,741,18.92
5.095,738,19.07
5.112,736,18.89
5.131,734,19.48
5.148,732,19.13
5.166,730,19.38
5.183,728,19.94
5.201,727,19.63
5.219,725,19.62
5.236,724,20.25
5.255,723,20.40
5.272,721,20.04
5.289,720,20.14
5.307,720,20.65
5.325,719,20.71
5.343,718,21.11
5.360,718,21.69
5.378,717,21.27
5.396,717,21.27
5.413,717,21.23
5.431,716,21.37
5.448,715,21.42
5.467,716,21.47
5.484,715,21.39
5.501,714,21.52
5.519,715,21.57
5.537,714,21.52
5.555,714,21.68
5.572,713,21.73
5.591,713,21.78
5.608,711,22.17
5.625,711,21.90
5.643,710,21.93
5.661,709,21.98
5.679,709,21.93
5.696,708,22.08
5.713,708,21.73
5.732,707,21.78
5.749,706,21.78
5.767,706,21.95
5.784,706,22.44
5.803,704,21.98
5.820,704,22.15
5.837,703,22.19
5.856,702,22.70
5.873,702,22.64
5.891,701,23.22
5.908,701,22.80
5.926,700,23.31
5.944,700,22.85
5.961,699,23.00
5.979,698,23.05
5.997,698,22.66
6.014,697,23.05
6.032,697,23.61
6.049,696,23.72
6.068,695,23.24
6.085,695,23.41
6.103,695,23.89
6.121,694,24.33
6.138,694,24.28
6.156,693,24.43
6.173,692,24.48
6.192,692,24.43
6.209,692,24.07
6.226,691,23.82
6.244,691,23.89
6.262,690,24.24
6.280,689,24.75
6.297,688,50.88
6.315,687,25.40
6.333,687,24.94
6.350,687,25.79
6.368,686,63.22
6.386,687,25.45
6.404,687,62.75
6.421,686,67.00
6.438,685,124.71
6.458,686,123.44
6.476,685,50.00
6.494,685,50.05
6.511,683,116.01
6.531,683,127.09
6.549,684,25.82
6.566,682,25.93
6.584,682,124.73
6.603,680,30.99
6.621,680,26.96
6.638,679,26.15
6.657,680,26.08
6.674,680,26.15
6.691,678,26.30
6.709,678,26.28
6.727,678,26.64
6.745,678,26.66
6.762,679,26.76
6.779,678,26.66
6.798,678,29.63
6.815,678,30.89
6.833,678,31.76
6.850,678,31.38
6.868,677,27.68
6.886,677,27.83
6.903,675,26.61
6.922,676,26.15
6.939,674,26.20
6.957,674,26.35
6.974,675,27.20
6.992,673,27.15
7.010,673,27.20
7.027,672,27.37
7.045,673,26.93
7.063,671,27.35
7.080,672,26.95
7.098,671,27.52
7.115,671,27.90
7.134,670,28.80
7.151,671,28.54
7.169,670,28.14
7.187,670,28.02
7.204,670,31.40
7.222,669,33.54
7.239,670,71.84
7.258,668,52.12
7.275,668,32.11
7.292,667,30.23
7.310,666,29.75
7.328,665,28.54
7.346,666,29.43
7.363,665,30.40
7.380,665,31.57
7.399,665,32.42
7.416,665,34.20
7.434,665,65.59
7.452,664,66.83
7.470,664,66.83
7.487,665,66.93
7.504,664,65.16
7.523,665,66.42
7.540,665,62.70
7.558,665,66.10
7.575,665,64.36
7.593,664,69.77
7.611,663,73.02
7.628,664,123.85
7.647,664,122.20
7.666,663,71.84
7.684,662,120.50
7.702,664,120.50
7.721,664,121.35
7.740,663,70.16
7.757,663,66.06
7.775,663,63.51
7.793,662,63.50
7.811,663,64.33
7.828,663,61.52
7.845,663,61.40
7.864,662,61.44
7.881,662,61.42
7.899,662,61.13
7.917,663,62.27
7.934,662,62.70
7.952,663,62.83
7.969,662,123.45
7.989,662,117.23
8.007,661,66.40
8.025,661,61.13
8.042,661,61.17
8.060,660,63.56
8.078,660,122.89
8.096,659,121.72
8.115,660,52.85
8.133,660,51.20
8.151,658,50.46
8.168,658,50.78
8.186,658,49.93
8.204,658,49.54
8.221,658,50.80
8.239,658,49.96
8.257,657,51.65
8.274,657,52.92
8.292,656,114.84
8.310,656,52.89
8.329,655,49.96
8.346,656,49.96
8.364,655,49.15
8.381,655,35.70
8.399,654,36.16
8.417,654,51.24
8.434,653,52.92
8.453,653,50.85
8.470,654,50.41
8.487,654,50.81
8.505,655,51.24
8.523,654,50.81
8.541,654,50.00
8.558,654,50.81
8.576,654,49.98
8.594,653,50.41
8.611,653,51.24
8.629,654,49.98
8.646,653,49.57
8.665,654,50.41
8.682,654,50.10
8.699,654,49.98
8.718,654,50.39
8.735,653,50.39
8.753,653,50.10
8.770,654,50.83
8.788,653,49.98
8.806,653,50.00
8.823,653,50.00
8.841,653,50.41
8.859,653,50.00
8.877,653,50.42
8.894,653,52.51
8.911,652,52.51
8.930,651,51.68
8.947,650,52.11
8.965,650,52.09
8.983,650,52.11
9.000,650,52.09
9.018,650,52.09
9.035,651,52.51
9.054,650,52.11
9.071,649,51.68
9.089,649,52.11
9.106,649,52.51
9.124,650,52.51
9.142,650,52.09
9.159,650,52.11
9.177,650,51.68
9.195,649,52.51
9.212,650,51.26
9.230,650,50.85
9.248,650,39.41
9.266,651,38.90
9.283,651,51.68
9.300,651,53.36
9.319,651,52.96
9.336,650,122.15
9.355,651,66.47
9.372,650,65.57
9.391,651,31.81
9.408,651,30.97
9.425,650,30.69
9.443,650,31.04
9.461,649,31.50
9.479,649,32.40
9.496,648,57.14
9.515,648,63.58
9.532,649,53.75
9.549,648,51.63
9.567,648,51.22
9.585,648,51.65
9.603,647,49.95
9.620,648,49.54
9.637,648,50.37
9.656,647,49.95
9.673,647,32.32
9.691,647,31.48
9.708,647,30.63
9.726,646,30.67
9.744,647,30.28
9.761,646,29.97
9.779,647,29.46
9.797,645,30.33
9.815,646,30.01
9.832,645,29.95
9.850,646,29.95
9.868,645,30.41
9.885,645,30.53
9.903,645,30.48
9.921,645,30.53
9.938,645,30.11
9.956,644,30.26
9.973,644,30.19
9.992,643,30.19
10.009,643,29.80
10.028,643,29.92
10.047,644,29.82
10.065,643,29.80
10.084,643,30.33
10.102,642,29.82
10.122,643,29.87
10.140,643,29.87
10.159,642,29.99
10.177,643,30.33
10.196,642,29.92
10.215,642,30.07
10.233,642,30.43
10.253,642,30.46
10.271,641,31.33
10.290,641,31.04
10.308,641,30.53
10.328,641,30.16
10.346,641,30.33
10.364,640,30.28
10.384,639,30.33
10.402,640,31.20
10.421,639,30.91
10.439,638,30.87
10.459,638,30.94
10.477,637,30.99
10.496,637,30.62
10.515,638,31.04
10.533,637,31.09
10.552,637,31.71
10.570,636,31.65
10.590,635,31.33
10.608,634,31.40
10.627,633,31.48
10.646,633,31.99
10.664,632,32.50
10.683,632,32.25
10.701,632,32.67
10.721,631,31.86
10.739,631,31.89
10.758,630,31.94
10.776,630,31.99
10.796,630,32.06
10.814,630,32.57
10.832,629,32.90
10.852,631,32.47
10.870,629,32.50
10.889,629,32.52
10.907,629,33.39
10.927,629,32.57
10.945,629,32.67
10.963,629,32.57
10.983,630,32.62
11.001,630,32.61
11.020,629,32.25
11.038,628,32.27
11.058,628,32.32
11.076,627,32.37
11.095,628,32.45
11.114,628,32.52
11.132,627,32.57
11.151,626,32.32
11.169,628,33.08
11.189,625,32.32
11.207,625,32.37
11.226,625,32.83
11.245,625,32.52
11.264,624,32.98
11.282,623,32.73
11.300,623,32.67
11.320,623,32.32
11.338,622,32.37
11.357,622,32.40
11.375,623,33.29
11.395,622,32.88
11.413,622,33.80
11.431,621,32.96
11.451,621,33.39
11.469,621,33.85
11.488,621,33.42
11.506,622,33.44
11.526,621,33.07
11.544,621,33.24
11.563,619,33.64
11.582,619,33.29
11.600,619,33.78
11.619,617,33.49
11.637,617,33.59
11.657,616,34.09
11.675,616,33.73
11.694,616,33.85
11.713,616,34.34
11.731,614,33.18
11.750,614,33.68
11.768,613,35.04
11.788,614,34.24
11.806,612,33.88
11.825,613,33.90
11.844,612,33.54
11.863,612,34.41
11.881,612,33.58
11.899,612,33.58
11.919,613,33.59
11.937,612,33.98
11.956,612,33.59
11.974,613,34.02
11.994,613,33.64
12.012,611,34.03
12.030,611,34.49
12.050,611,35.43
12.068,610,35.53
12.087,610,34.31
12.105,609,33.98
12.125,609,34.43
12.143,609,34.51
12.162,608,34.99
12.181,608,35.02
12.199,608,35.07
12.218,607,35.92
12.236,608,35.94
12.256,608,35.96
12.274,608,35.84
12.293,607,35.50
12.312,609,35.53
12.331,607,34.71
12.349,609,34.71
12.367,607,35.12
12.387,607,34.36
12.405,606,34.41
12.424,606,34.87
12.443,606,35.33
12.462,606,34.97
12.480,607,35.46
12.498,605,36.38
12.518,604,35.63
12.536,604,35.28
12.555,604,35.73
12.573,604,36.19
12.593,604,37.08
12.611,603,36.31
12.630,603,36.41
12.649,602,35.21
12.667,602,35.24
12.686,602,36.14
12.704,601,35.79
12.724,602,37.16
12.742,600,35.60
12.761,600,36.52
12.780,600,35.73
12.798,599,36.58
12.817,599,36.72
12.835,598,36.38
12.855,597,35.63
12.873,597,35.99
12.892,596,37.01
12.911,598,37.08
12.930,596,37.15
12.948,597,36.81
12.966,596,37.25
12.986,596,36.84
13.004,596,36.70
13.023,596,36.84
13.042,596,36.43
13.061,596,36.41
13.079,596,36.43
13.097,597,36.45
13.117,596,36.86
13.135,596,35.94
13.154,595,36.09
13.172,594,36.14
13.192,594,37.06
13.210,593,37.57
13.229,594,37.21
13.248,593,36.50
13.266,592,36.84
13.285,592,37.45
13.303,592,38.78
13.323,591,38.83
13.341,591,37.26
13.360,591,36.91
13.379,590,37.83
13.398,590,37.76
13.416,590,38.37
13.434,589,38.86
13.454,590,37.67
13.472,588,38.05
13.491,589,37.32
13.510,588,37.32
13.529,590,38.08
13.547,589,37.83
13.565,588,39.61
13.585,587,38.49
13.603,588,37.60
13.622,587,38.64
13.641,586,38.69
13.660,587,39.10
13.678,586,39.71
13.697,586,38.49
13.716,584,38.13
13.734,585,38.08
13.753,586,39.10
13.771,585,39.15
13.791,584,39.15
13.809,582,38.88
13.828,583,38.54
13.847,582,39.00
13.865,582,38.49
13.884,581,39.10
13.902,581,39.59
13.922,582,39.53
13.940,582,40.07
13.959,581,40.10
13.978,581,39.73
13.997,581,39.20
14.015,581,38.95
14.033,580,38.61
14.053,580,39.03
14.071,579,39.41
14.090,581,39.98
14.109,579,40.09
14.128,579,40.09
14.146,578,39.83
14.164,578,39.90
14.184,579,40.29
14.202,578,39.93
14.221,578,40.49
14.240,577,39.76
14.259,576,39.68
14.277,576,39.47
14.296,576,39.92
14.315,576,39.97
14.333,577,40.32
14.352,575,40.48
14.370,576,40.94
14.390,575,40.87
14.408,575,40.17
14.427,575,39.81
14.446,574,39.83
14.465,574,39.78
14.483,574,40.75
14.501,574,41.21
14.521,574,40.73
14.539,574,40.90
14.558,574,40.94
14.577,573,40.58
14.596,572,40.95
14.614,572,40.27
14.632,572,41.14
14.652,571,40.70
14.670,572,41.19
14.689,572,40.99
14.708,572,41.04
14.727,570,40.99
14.745,570,41.14
14.764,570,41.62
14.783,571,41.17
14.801,570,41.24
14.820,571,41.40
14.839,570,41.04
14.858,569,40.97
14.876,570,41.12
14.895,569,42.04
14.914,568,41.55
14.932,569,41.63
14.951,569,41.80
14.969,568,41.89
14.989,567,41.43
15.007,567,42.06
15.026,566,42.16
15.045,566,41.75
15.064,566,41.82
15.082,565,42.47
15.100,565,42.57
15.120,565,42.18
15.138,564,42.81
15.157,565,42.93
15.176,563,42.91
15.195,562,42.57
15.213,563,42.74
15.232,563,43.23
15.251,562,43.18
15.269,563,43.23
15.288,562,43.37
15.307,562,43.25
15.326,561,43.03
15.344,561,43.23
15.363,560,43.23
15.382,560,43.13
15.400,561,43.40
15.419,562,43.28
15.438,561,43.50
15.457,562,43.49
15.475,560,43.61
15.494,562,44.10
15.513,561,43.57
15.532,559,44.01
15.550,561,43.71
15.568,560,43.61
15.588,559,44.06
15.606,559,43.76
15.625,559,43.40
15.644,561,43.32
15.663,560,43.33
15.681,560,43.45
15.699,560,43.44
15.719,560,43.38
15.737,560,43.52
15.756,559,44.42
15.775,559,43.96
15.794,559,44.01
15.812,558,44.17
15.831,558,43.78
15.850,559,43.71
15.868,558,44.17
15.887,558,43.91
15.906,557,44.29
15.925,558,44.39
15.943,557,44.56
15.962,557,44.22
15.981,556,44.13
16.000,556,44.23
16.018,556,44.83
16.037,557,45.24
16.056,556,45.29
16.074,555,45.03
16.093,556,45.10
16.112,554,44.63
16.131,555,45.08
16.149,554,45.24
16.167,555,45.19
16.187,553,45.70
16.205,555,45.39
16.224,554,45.03
16.243,554,44.93
16.262,554,44.93
16.280,554,45.49
16.299,554,45.02
16.318,553,45.92
16.336,554,45.66
16.355,554,45.76
16.374,553,45.70
16.393,552,45.36
16.411,553,45.51
16.430,552,45.90
16.449,551,46.00
16.467,551,46.04
16.486,552,45.82
16.505,551,45.75
16.524,552,45.80
16.542,551,45.93
16.561,550,45.85
16.580,550,45.90
16.599,550,46.77
16.617,550,46.89
16.636,550,46.36
16.655,550,46.82
16.673,550,46.92
16.692,550,46.41
16.711,550,46.92
16.730,550,46.51
16.748,549,46.26
16.766,549,46.21
16.786,549,46.27
16.804,548,46.41
16.823,549,47.19
16.842,548,46.78
16.861,548,46.89
16.879,549,47.02
16.898,549,46.55
16.917,549,46.63
16.935,547,46.72
16.954,548,46.63
16.973,548,47.02
16.992,547,46.67
17.010,547,46.82
17.029,547,47.60
17.048,547,47.70
17.067,547,47.35
17.085,547,46.99
17.104,546,46.61
17.123,546,46.68
17.141,546,47.24
17.160,545,48.01
17.179,546,48.06
17.198,545,47.65
17.216,545,47.70
17.235,545,47.70
17.254,545,47.35
17.272,545,47.45
17.291,545,47.80
17.310,544,47.38
17.329,546,47.38
17.347,545,47.53
17.366,544,47.38
17.385,545,47.01
17.403,546,47.12
17.422,545,47.04
17.441,545,47.02
17.460,544,47.04
17.478,545,47.14
17.497,544,47.41
17.516,545,47.82
17.534,546,47.14
17.553,545,47.41
17.572,544,47.41
17.591,544,47.02
17.609,545,47.52
17.628,545,47.41
17.647,545,47.41
17.666,545,47.43
17.684,546,47.04
17.703,544,47.02
17.722,544,47.04
17.740,546,47.53
17.759,545,47.06
17.778,545,47.04
17.797,546,47.04
17.815,544,47.14
17.835,544,47.43
17.853,544,47.41
17.871,544,47.16
17.890,545,47.04
17.909,545,47.04
17.928,544,47.04
17.946,544,47.16
17.965,545,47.06
17.984,546,47.06
18.002,545,47.55
18.021,544,47.07
18.040,544,47.06
18.059,545,47.45
18.077,545,47.57
18.096,545,47.45
18.115,544,47.86
18.134,544,47.57
18.152,545,47.92
18.171,545,47.92
18.190,544,47.92
18.208,544,47.19
18.227,544,47.92
18.246,543,47.45
18.265,543,47.92
18.283,544,47.09
18.302,544,47.92
18.321,543,47.92
18.339,543,48.03
18.358,543,47.46
18.377,543,47.06
18.396,544,47.06
18.414,544,47.43
18.434,543,47.48
18.452,542,47.48
18.470,543,47.14
18.489,542,47.06
18.508,542,47.06
18.527,543,47.41
18.545,541,47.14
18.564,542,47.04
18.583,542,47.04
18.601,541,47.57
18.620,542,47.04
18.639,542,47.04
18.658,541,47.06
18.676,542,47.16
18.695,542,47.06
18.714,542,47.06
18.733,542,47.53
18.751,543,47.04
18.770,541,47.46
18.789,542,47.43
18.807,541,47.16
18.826,541,47.04
18.845,541,47.46
18.864,541,47.04
18.882,543,47.46
18.902,541,47.46
18.920,542,47.04
18.938,542,47.14
18.957,543,47.04
18.976,542,47.46
18.995,542,47.04
19.013,541,47.14
19.033,542,47.02
19.051,542,47.04
19.069,541,47.14
19.088,542,47.04
19.107,541,47.04
19.126,542,47.45
19.144,542,47.16
19.163,541,47.91
19.182,541,47.50
19.201,542,48.50
19.219,542,48.01
19.238,541,48.50
19.257,541,48.11
19.275,542,48.26
19.294,541,48.16
19.313,541,47.79
19.332,542,48.31
19.350,542,47.80
19.369,540,47.43
19.388,541,47.50
19.406,540,48.06
19.425,540,48.45
19.444,540,49.33
19.463,540,48.52
19.481,540,48.52
19.501,540,48.91
19.519,539,48.55
19.537,540,48.30
19.556,540,48.21
19.575,540,47.82
19.594,540,48.26
19.612,539,47.94
19.632,538,49.27
19.650,538,48.96
19.668,538,48.71
19.687,538,48.60
19.706,539,48.62
19.725,538,48.25
19.743,539,48.26
19.762,539,47.89
19.781,538,48.72
19.800,537,48.42
19.818,537,48.31
19.837,538,48.76
19.856,538,48.77
19.874,538,48.79
19.893,538,48.77
19.912,538,49.23
19.931,539,50.61
19.949,539,50.17
19.969,537,49.03
19.987,537,49.06
20.005,537,48.76
20.024,536,48.26
20.043,537,48.65
20.062,536,48.65
20.080,537,48.65
20.100,538,48.67
20.118,536,48.62
20.136,537,48.76
20.155,537,48.62
20.174,537,49.03
20.193,536,48.65
20.211,537,48.65
20.231,537,48.25
20.249,536,48.62
20.268,536,48.72
20.286,537,49.08
20.305,538,48.64
20.324,537,48.64
20.342,537,48.64
20.361,536,48.64
20.380,537,49.03
20.399,536,48.72
20.417,538,48.65
20.436,537,48.26
20.455,538,48.64
20.473,537,48.37
20.492,537,48.64
20.511,537,48.65
20.530,537,48.37
20.548,537,48.64
20.568,537,48.65
20.586,537,48.25
20.604,538,48.37
20.623,537,48.26
20.642,538,48.25
20.661,537,48.26
20.679,537,48.65
20.699,537,49.01
20.717,537,49.01
